$N1$;Logging01
$I$;200;02012025_185740800
$C1$;Latitude [°];Longitude [°];Altitude [m,h];Speed [km/h,v];gForce [g,f];Acc X [g,x];Acc Y [g,y];Acc Z [g,z]
$33,71603;-112,47021;474;138;7,95;-3,79;4,42;-5,40
$33,71600;-112,47012;475;143;7,13;-4,27;4,66;-3,28
$33,71598;-112,47003;476;147;3,77;-1,47;2,78;2,7
$33,71597;-112,46996;477;150;8,36;-4,86;4,81;4,81
$33,71598;-112,46986;479;154;6,14;-2,9;4,15;-4,0
$33,71599;-112,46976;479;156;6,51;-3,3;4,30;-3,83
$33,71600;-112,46968;480;159;11,79;5,55;-6,64;7,99
$33,71604;-112,46958;481;166;7,70;-5,56;4,0;3,50
$33,71609;-112,46948;482;168;7,83;0,63;5,63;5,41
$33,71613;-112,46942;483;171;8,66;4,93;-6,48;-2,94
$33,71621;-112,46935;484;176;10,20;-5,73;7,99;2,69
$33,71627;-112,46929;484;180;11,14;1,14;-7,67;7,99
$33,71635;-112,46924;485;183;5,90;-5,46;2,18;0,48
$33,71645;-112,46920;486;181;8,74;-3,92;3,5;7,19
$33,71652;-112,46918;487;185;8,97;-5,50;6,22;3,39
$33,71663;-112,46917;487;186;4,90;3,33;-2,76;-2,30
$33,71673;-112,46918;489;189;10,32;3,93;-7,47;5,93
$33,71681;-112,46920;490;195;3,30;2,43;0,95;2,1
$33,71692;-112,46923;491;200;8,84;-1,58;5,31;6,89
$33,71702;-112,46927;491;198;6,53;0,4;3,91;5,23
$33,71710;-112,46930;490;199;8,37;1,8;2,21;7,99
$33,71720;-112,46935;490;208;8,39;1,26;7,99;-2,21
$33,71728;-112,46940;490;210;7,82;-1,98;4,68;5,94
$33,71738;-112,46946;489;211;8,83;0,19;-8,0;3,74
$33,71749;-112,46953;489;213;5,57;-2,57;4,79;-1,23
$33,71756;-112,46959;488;215;5,12;2,11;-3,50;3,8
$33,71766;-112,46967;488;218;3,35;-2,72;1,94;0,0
$33,71776;-112,46975;488;220;6,74;1,29;-5,52;3,64
$33,71783;-112,46981;487;220;3,65;-2,0;3,3;0,35
$33,71793;-112,46990;487;222;7,18;3,0;-5,53;3,44
$33,71802;-112,47000;488;222;6,48;-4,85;-4,19;0,92
$33,71809;-112,47008;488;223;8,50;0,34;2,86;7,99
$33,71818;-112,47018;489;222;3,34;-1,43;3,1;0,8
$33,71824;-112,47026;489;222;7,80;2,56;-6,12;4,11
$33,71831;-112,47038;490;224;8,88;-4,95;7,37;0,12
$33,71838;-112,47050;491;226;1,71;0,56;1,49;0,61
$33,71843;-112,47060;491;226;9,91;2,58;-7,12;6,39
$33,71848;-112,47073;491;226;11,92;-7,77;7,99;4,22
$33,71851;-112,47088;491;227;5,34;0,7;3,83;3,72
$33,71852;-112,47099;489;226;11,84;-7,39;7,99;4,65
$33,71850;-112,47114;488;225;12,31;7,99;-4,86;7,99
$33,71845;-112,47127;486;222;13,6;-7,23;7,36;7,99
$33,71839;-112,47135;484;221;8,17;4,71;4,54;4,90
$33,71830;-112,47144;481;211;7,72;-3,6;0,19;7,8
$33,71821;-112,47147;477;211;8,52;-2,4;7,99;2,12
$33,71810;-112,47150;474;212;7,91;-2,92;7,28;0,95
$33,71798;-112,47150;471;217;12,77;6,11;-8,0;7,85
$33,71789;-112,47147;468;214;12,3;5,16;-8,0;7,35
$33,71778;-112,47144;467;210;9,14;-6,94;5,94;0,9
$33,71767;-112,47138;465;217;12,40;7,55;-8,0;5,73
$33,71759;-112,47134;464;217;5,79;2,32;-4,2;3,47
$33,71748;-112,47128;463;218;4,26;0,81;0,15;4,18
$33,71737;-112,47121;463;220;4,44;-2,32;3,44;1,57
$33,71729;-112,47117;463;220;5,13;-2,48;3,93;2,17
$33,71718;-112,47111;463;220;4,94;-3,10;2,90;2,52
$33,71710;-112,47105;463;220;5,7;-1,85;1,92;4,31
$33,71700;-112,47099;463;220;0,88;0,76;0,23;0,38
$33,71688;-112,47092;464;220;7,3;-3,84;5,87;0,49
$33,71680;-112,47088;464;219;10,82;-7,42;7,33;-2,89
$33,71669;-112,47081;465;218;5,63;-3,31;4,47;0,84
$33,71658;-112,47075;467;218;3,85;-1,58;1,56;3,15
$33,71651;-112,47070;468;217;5,97;2,25;-3,71;4,10
$33,71640;-112,47063;470;216;2,56;1,90;-1,34;1,5
$33,71629;-112,47057;472;213;5,32;1,58;-4,0;3,13
$33,71622;-112,47053;475;212;3,44;-1,71;2,98;0,24
$33,71611;-112,47046;477;209;4,72;-3,41;3,25;0,19
$33,71604;-112,47041;480;208;1,74;0,5;1,57;0,74
$33,71594;-112,47033;482;210;11,43;5,1;-8,0;6,45
$33,71585;-112,47025;485;209;5,93;1,81;-4,59;3,28
$33,71579;-112,47018;487;210;10,58;-6,93;7,99;0,0
$33,71570;-112,47008;488;214;7,10;4,93;1,9;5,0
$33,71563;-112,46997;488;211;10,59;-2,83;6,34;7,99
$33,71558;-112,46988;487;208;12,19;4,54;-8,0;7,99
$33,71554;-112,46974;485;211;8,75;-2,35;7,35;4,12
$33,71553;-112,46964;478;202;12,25;4,70;-8,0;7,99
$33,71553;-112,46951;473;178;10,82;-3,75;7,99;6,24
$33,71559;-112,46943;468;164;6,1;0,53;-1,2;5,90
$33,71563;-112,46938;464;149;12,4;7,68;-4,70;7,99
$33,71572;-112,46935;461;162;9,11;-6,29;6,52;0,96
$33,71581;-112,46933;459;183;5,8;2,30;-1,19;4,37
$33,71589;-112,46933;456;181;5,56;2,64;-4,3;-2,76
$33,71600;-112,46935;454;195;12,30;7,99;-8,0;4,83
$33,71612;-112,46937;451;220;8,19;5,23;-5,45;3,14
$33,71621;-112,46940;448;222;7,26;1,13;-2,72;6,63
$33,71632;-112,46944;446;228;8,2;-1,8;0,41;7,93
$33,71642;-112,46947;444;231;6,30;-3,42;5,9;1,42
$33,71654;-112,46954;442;235;11,27;-7,65;7,99;-2,10
$33,71666;-112,46960;440;235;11,39;-8,0;7,99;-1,35
$33,71675;-112,46965;439;238;11,40;-7,0;7,99;4,13
$33,71687;-112,46972;438;239;9,10;6,74;-4,54;4,7
$33,71699;-112,46980;437;239;5,34;3,74;-1,86;3,32
$33,71708;-112,46986;436;238;2,70;1,2;2,47;0,40
$33,71719;-112,46993;436;238;5,32;-3,83;3,64;0,56
$33,71731;-112,47002;436;239;4,11;0,81;4,0;0,51
$33,71740;-112,47009;437;238;2,17;0,33;2,10;0,45
$33,71751;-112,47018;437;236;2,44;1,76;1,65;0,34
$33,71762;-112,47028;439;236;5,83;1,42;-3,92;4,8
$33,71769;-112,47035;440;235;9,15;1,50;-4,34;7,91
$33,71780;-112,47047;442;234;8,9;1,12;-3,89;7,0
$33,71787;-112,47055;444;233;10,58;-6,39;7,99;-2,67
$33,71795;-112,47067;445;234;5,53;-2,93;4,66;0,51
$33,71803;-112,47079;446;234;5,38;3,67;-1,47;3,65
$33,71807;-112,47089;447;231;11,40;1,42;-8,0;7,99
$33,71811;-112,47104;448;225;10,44;-1,79;7,99;6,46
$33,71811;-112,47119;450;227;9,32;4,1;2,60;7,99
$33,71807;-112,47129;451;218;11,43;1,64;-8,0;7,99
$33,71799;-112,47139;453;209;11,34;-8,0;7,99;0,88
$33,71792;-112,47144;453;204;9,85;-5,75;7,99;0,1
$33,71782;-112,47148;452;204;9,77;4,65;3,13;7,99
$33,71771;-112,47150;450;204;12,9;4,27;-8,0;7,99
$33,71762;-112,47149;448;203;13,55;-8,0;7,99;7,46
$33,71752;-112,47147;446;202;7,60;-5,55;5,19;0,16
$33,71741;-112,47144;442;198;7,91;0,9;-1,81;7,70
$33,71733;-112,47141;439;207;10,14;5,19;-5,62;6,65
$33,71722;-112,47137;437;209;7,29;0,68;4,26;5,87
$33,71711;-112,47131;435;213;4,33;0,83;4,24;0,20
$33,71703;-112,47128;434;214;8,54;4,52;-6,83;2,41
$33,71693;-112,47122;434;215;10,17;-7,49;6,13;-3,11
$33,71684;-112,47118;434;217;7,19;4,3;-5,69;1,75
$33,71674;-112,47114;433;216;4,33;0,96;-2,15;3,64
$33,71663;-112,47108;433;216;2,56;-1,55;0,35;2,0
$33,71655;-112,47103;434;216;4,75;0,90;-3,47;3,12
$33,71644;-112,47098;434;217;5,97;-1,11;5,40;2,30
$33,71633;-112,47092;435;216;8,28;-4,40;6,12;-3,42
$33,71626;-112,47087;436;216;3,74;-1,72;3,23;0,80
$33,71615;-112,47081;437;215;3,19;-1,49;1,58;2,34
$33,71605;-112,47074;439;215;10,64;-5,94;7,83;-4,6
$33,71597;-112,47069;441;214;4,64;-2,58;3,81;0,58
$33,71587;-112,47062;442;213;10,29;5,86;-6,94;4,84
$33,71580;-112,47056;444;212;7,78;4,59;-5,95;2,0
$33,71570;-112,47048;445;212;11,91;-8,0;7,99;-3,73
$33,71561;-112,47039;447;212;5,27;3,54;-1,83;3,44
$33,71554;-112,47032;448;212;8,23;-3,27;7,32;1,88
$33,71547;-112,47022;448;214;7,10;-2,5;5,82;3,51
$33,71541;-112,47009;448;210;9,75;1,20;-5,44;7,99
$33,71540;-112,46999;448;208;9,47;-3,26;7,99;3,87
$33,71542;-112,46985;448;226;11,31;0,27;7,99;7,99
$33,71548;-112,46972;447;228;13,55;7,97;-7,48;7,99
$33,71555;-112,46964;444;217;11,55;2,33;-8,0;7,99
$33,71564;-112,46956;442;225;11,52;-2,20;-8,0;7,99
$33,71574;-112,46954;440;216;11,27;-8,0;7,88;0,97
$33,71586;-112,46955;439;212;9,14;3,94;-2,0;7,99
$33,71597;-112,46958;436;213;7,86;-2,73;7,34;0,61
$33,71606;-112,46962;434;218;6,8;3,94;-3,7;3,45
$33,71617;-112,46968;435;223;8,18;-4,49;6,81;0,60
$33,71629;-112,46975;434;225;9,96;5,11;-8,0;3,3
$33,71637;-112,46980;434;227;3,86;0,1;3,86;0,3
$33,71648;-112,46987;434;228;9,95;4,65;-8,0;3,66
$33,71659;-112,46994;434;228;4,50;0,65;2,50;3,68
$33,71668;-112,46999;435;229;9,12;-4,89;7,41;-2,10
$33,71680;-112,47006;435;227;12,22;7,85;-8,0;4,88
$33,71688;-112,47012;435;229;4,11;2,86;-2,39;1,72
$33,71700;-112,47019;436;229;7,75;0,51;7,73;0,9
$33,71711;-112,47027;437;229;13,51;-7,75;7,99;7,64
$33,71720;-112,47032;438;229;7,60;4,82;-5,84;0,65
$33,71731;-112,47040;439;228;5,17;0,3;-1,53;4,94
$33,71743;-112,47047;440;228;10,39;-5,68;7,99;-3,42
$33,71751;-112,47053;442;226;9,4;-5,24;7,35;0,31
$33,71762;-112,47060;444;225;11,26;4,81;-8,0;6,31
$33,71772;-112,47068;447;222;7,62;0,35;-1,94;7,35
$33,71780;-112,47074;450;222;10,81;5,4;-8,0;5,23
$33,71790;-112,47083;451;224;5,35;0,74;2,16;4,84
$33,71798;-112,47090;453;225;6,44;-3,74;5,24;0,4
$33,71806;-112,47101;454;226;8,51;-2,25;-1,84;7,99
$33,71814;-112,47114;456;223;11,37;1,21;7,99;7,99
$33,71817;-112,47123;459;222;9,74;3,26;4,50;7,99
$33,71818;-112,47138;463;229;12,89;6,19;-8,0;7,99
$33,71814;-112,47152;464;224;8,87;3,26;2,4;7,99
$33,71808;-112,47160;465;214;13,85;7,99;-8,0;7,99
$33,71798;-112,47167;463;206;10,44;-1,7;-8,0;6,63
$33,71788;-112,47170;460;204;8,76;3,18;7,99;1,61
$33,71779;-112,47171;457;205;3,28;0,76;1,75;2,66
$33,71768;-112,47170;455;207;6,48;-5,63;1,44;2,87
$33,71759;-112,47168;454;210;8,65;-2,38;-8,0;2,29
$33,71749;-112,47163;453;207;11,29;-7,53;7,99;-2,60
$33,71739;-112,47158;452;209;12,9;6,0;-8,0;6,79
$33,71730;-112,47154;450;209;4,93;1,96;-2,40;3,83
$33,71720;-112,47148;448;212;7,93;-2,66;7,20;-1,98
$33,71710;-112,47142;446;213;9,97;-5,58;7,83;-2,61
$33,71702;-112,47137;445;214;10,45;4,90;-8,0;4,60
$33,71692;-112,47131;444;216;9,88;4,68;-8,0;3,44
$33,71684;-112,47125;443;217;10,27;4,86;-8,0;4,22
$33,71674;-112,47118;442;218;9,83;4,19;-8,0;3,89
$33,71663;-112,47112;441;219;3,84;0,59;-1,80;3,34
$33,71655;-112,47105;441;219;6,94;4,4;-4,75;3,4
$33,71645;-112,47098;441;220;8,15;3,52;-6,58;-3,27
$33,71635;-112,47090;441;220;6,75;-1,44;6,57;0,47
$33,71628;-112,47085;441;220;7,5;3,27;0,83;6,18
$33,71617;-112,47076;442;219;8,33;4,63;1,22;6,81
$33,71607;-112,47069;443;217;7,19;-1,33;7,5;0,45
$33,71600;-112,47063;445;216;7,91;-2,27;7,46;-1,31
$33,71591;-112,47054;446;214;11,42;-8,0;7,99;-1,56
$33,71584;-112,47047;448;213;7,77;4,30;0,65;6,44
$33,71576;-112,47037;450;212;11,81;-8,0;7,99;-3,41
$33,71569;-112,47026;452;214;9,71;-2,20;5,54;7,66
$33,71563;-112,47018;454;208;10,35;6,58;0,6;7,99
$33,71560;-112,47005;456;202;13,85;-8,0;7,99;7,99
$33,71561;-112,46992;455;190;13,8;6,58;-8,0;7,99
$33,71563;-112,46983;452;171;10,13;5,63;-2,63;7,99
$33,71569;-112,46973;449;167;10,27;-4,46;4,64;7,99
$33,71579;-112,46969;447;206;9,78;4,54;3,32;7,99
$33,71587;-112,46967;443;187;8,14;0,42;7,99;1,48
$33,71595;-112,46964;439;144;7,79;4,29;-6,20;1,97
$33,71600;-112,46960;432;140;3,42;0,6;3,41;0,28
$33,71607;-112,46956;427;137;9,18;6,79;0,63;6,15
$33,71614;-112,46954;421;137;5,18;-1,10;4,96;1,2
$33,71620;-112,46951;412;157;11,83;-8,0;7,99;-3,47
$33,71632;-112,46958;413;202;5,58;3,55;-2,71;3,33
$33,71642;-112,46963;413;211;6,40;2,50;-2,17;5,48
$33,71651;-112,46967;413;218;10,28;-6,81;7,68;0,57
$33,71661;-112,46973;414;220;10,77;4,17;-8,0;5,88
$33,71672;-112,46980;414;220;4,54;1,93;0,62;4,5
$33,71681;-112,46984;415;220;12,43;-7,48;7,99;5,88
$33,71692;-112,46991;416;224;4,59;0,66;-2,33;3,89
$33,71700;-112,46996;418;224;8,15;0,94;7,99;-1,24
$33,71711;-112,47003;420;224;3,86;-3,32;1,95;0,26
$33,71723;-112,47011;422;224;11,46;5,72;-8,0;5,88
$33,71730;-112,47017;425;223;7,41;0,57;6,66;3,19
$33,71741;-112,47026;427;223;7,27;-5,60;4,59;0,68
$33,71752;-112,47035;429;222;7,56;4,98;2,2;5,31
$33,71759;-112,47043;432;224;10,43;-6,86;7,85;0,22
$33,71768;-112,47054;434;219;10,92;4,44;-8,0;5,97
$33,71776;-112,47064;436;224;11,32;7,99;0,42;7,99
$33,71782;-112,47074;436;226;10,4;6,2;0,73;7,99
$33,71786;-112,47089;436;229;8,81;0,21;3,69;7,99
$33,71787;-112,47101;435;228;10,12;3,67;-4,99;7,99
$33,71783;-112,47115;434;220;9,91;4,89;-3,22;7,99
$33,71775;-112,47128;432;250;10,59;6,11;3,30;7,99
$33,71768;-112,47135;428;243;8,93;0,99;4,32;7,74
$33,71757;-112,47141;423;228;9,66;5,5;3,53;7,43
$33,71747;-112,47143;416;195;6,68;0,96;1,39;6,46
$33,71740;-112,47141;410;195;8,76;-2,85;-8,0;2,17
$33,71730;-112,47137;409;198;11,6;-8,0;6,59;3,86
$33,71720;-112,47132;407;205;11,97;-8,0;7,99;-3,93
$33,71713;-112,47128;406;206;11,39;4,36;-8,0;6,83
$33,71704;-112,47122;406;208;9,25;7,99;0,44;4,63
$33,71696;-112,47118;405;209;11,60;-7,90;7,99;-2,86
$33,71686;-112,47114;404;212;5,23;0,92;5,10;0,64
$33,71676;-112,47107;404;214;5,17;2,84;-3,29;2,79
$33,71669;-112,47102;405;215;5,6;1,80;-1,51;4,47
$33,71659;-112,47095;405;215;7,59;5,28;0,76;5,40
$33,71649;-112,47089;406;215;7,31;1,18;7,19;0,52
$33,71642;-112,47084;407;217;10,13;-5,63;7,99;-2,64
$33,71632;-112,47077;408;216;11,33;-8,0;7,99;0,74
$33,71622;-112,47070;410;217;5,87;-3,66;4,49;0,92
$33,71614;-112,47064;411;216;8,25;5,99;-1,39;5,50
$33,71605;-112,47057;412;216;9,28;5,68;7,6;1,98
$33,71597;-112,47052;414;216;11,36;-7,72;7,99;-2,34
$33,71587;-112,47044;416;216;10,71;-8,0;7,11;0,12
$33,71577;-112,47036;418;213;5,61;1,27;-1,39;5,29
$33,71571;-112,47030;421;211;9,82;4,25;-8,0;3,78
$33,71563;-112,47021;423;210;9,60;-4,77;7,99;-2,31
$33,71555;-112,47011;426;207;8,84;-6,4;6,44;0,12
$33,71550;-112,47003;428;209;11,89;3,68;-8,0;7,99
$33,71544;-112,46991;430;206;8,40;-2,13;1,71;7,94
$33,71544;-112,46981;433;205;10,30;6,30;-1,56;7,99
$33,71546;-112,46967;434;204;10,66;6,74;-2,5;7,99
$33,71553;-112,46956;435;200;11,11;7,12;-2,96;7,99
$33,71560;-112,46950;432;226;8,44;-1,57;2,18;7,99
$33,71571;-112,46943;426;210;8,44;-1,51;4,2;7,26
$33,71581;-112,46943;419;166;11,36;1,12;-8,0;7,99
$33,71587;-112,46945;414;163;9,92;7,65;4,68;4,23
$33,71596;-112,46951;412;165;6,84;0,66;6,78;0,61
$33,71604;-112,46955;408;155;10,22;-5,30;7,99;-3,51
$33,71610;-112,46959;403;161;13,4;7,86;-8,0;6,65
$33,71618;-112,46964;400;173;9,69;-3,88;7,99;-3,87
$33,71625;-112,46968;395;177;7,45;3,97;-2,67;5,70
$33,71634;-112,46973;392;182;3,86;-1,11;-1,85;3,19
$33,71643;-112,46979;388;195;11,36;-7,3;7,99;-3,94
$33,71651;-112,46983;385;200;5,89;3,6;-4,14;2,87
$33,71661;-112,46989;383;205;8,79;3,43;7,89;1,81
$33,71671;-112,46996;382;222;10,4;-8,0;6,7;0,13
$33,71680;-112,47002;382;227;2,19;1,65;1,20;0,79
$33,71692;-112,47009;383;229;11,36;3,43;-8,0;7,31
$33,71703;-112,47015;384;230;12,32;4,89;-8,0;7,99
$33,71711;-112,47020;386;227;9,60;-4,90;7,99;-2,5
$33,71723;-112,47027;388;226;8,8;-5,50;5,91;0,15
$33,71732;-112,47031;391;221;6,37;-5,14;3,22;1,95
$33,71743;-112,47038;394;219;4,73;0,19;0,9;4,72
$33,71753;-112,47046;397;218;2,95;1,40;0,98;2,40
$33,71760;-112,47052;400;218;10,82;-8,0;7,28;0,31
$33,71770;-112,47060;402;215;8,33;2,34;0,6;7,99
$33,71779;-112,47071;404;221;9,28;0,43;4,69;7,99
$33,71784;-112,47081;408;229;9,72;3,97;-3,84;7,99
$33,71788;-112,47096;411;229;12,28;7,99;4,80;7,99
$33,71789;-112,47108;409;175;12,68;-8,0;5,73;7,99
$33,71787;-112,47117;405;171;11,87;-4,97;7,23;7,99
$33,71778;-112,47128;402;229;11,21;0,9;-8,0;7,86
$33,71772;-112,47133;394;197;6,84;-4,9;4,61;2,95
$33,71763;-112,47136;380;188;6,78;1,92;4,55;4,64
$33,71754;-112,47136;354;175;7,24;0,25;5,88;4,22
$33,71747;-112,47136;328;183;9,63;-4,68;7,99;2,63
$33,71738;-112,47136;307;174;8,23;-1,80;-8,0;0,69
$33,71728;-112,47135;284;182;10,50;7,99;5,81;3,55
$33,71721;-112,47134;266;184;8,54;-1,25;-8,0;2,74
$33,71711;-112,47133;254;186;8,75;0,88;-8,0;3,43
$33,71704;-112,47132;238;187;8,35;2,29;-8,0;0,71
$33,71694;-112,47131;227;188;2,58;1,12;0,75;2,20
$33,71684;-112,47129;213;193;4,61;2,89;1,52;3,25
$33,71676;-112,47127;202;195;11,21;7,99;-3,13;7,20
$33,71666;-112,47124;195;197;10,26;-8,0;6,39;0,62
$33,71655;-112,47121;184;208;10,64;-8,0;7,1;0,37
$33,71648;-112,47118;176;200;11,33;-8,0;7,99;0,66
$33,71637;-112,47115;170;202;10,88;-8,0;7,37;0,24
$33,71627;-112,47108;167;208;5,22;-1,45;5,1;0,12
$33,71619;-112,47104;170;218;4,37;0,48;-1,19;4,17
$33,71609;-112,47098;172;218;10,11;7,99;5,26;3,25
$33,71598;-112,47092;175;215;8,7;-5,54;5,71;-1,30
$33,71590;-112,47087;178;214;9,62;-5,88;7,59;0,54
$33,71581;-112,47079;181;212;3,70;0,26;0,55;3,65
$33,71574;-112,47074;184;212;5,26;4,65;0,83;2,31
$33,71564;-112,47066;187;212;5,0;1,68;-1,77;4,36
$33,71556;-112,47057;190;213;8,63;0,17;-5,95;6,25
$33,71550;-112,47049;191;214;9,4;-2,99;4,10;7,48
$33,71544;-112,47037;190;197;11,12;5,48;-5,44;7,99
$33,71543;-112,47025;183;184;11,33;7,99;0,69;7,99
$33,71544;-112,47017;171;177;12,3;-8,0;4,10;7,99
$33,71550;-112,47006;160;184;10,21;-5,59;4,21;7,43
$33,71556;-112,47002;148;190;7,44;-1,69;4,60;5,59
$33,71567;-112,46999;144;194;9,23;1,90;-8,0;4,19
$33,71579;-112,46997;142;214;7,96;4,91;4,87;3,94
$33,71588;-112,46996;145;213;3,19;0,23;2,62;1,80
$33,71600;-112,46997;146;219;3,8;2,31;-2,2;0,20
$33,71613;-112,46998;148;223;5,46;-3,13;4,9;-1,81
$33,71622;-112,46999;149;220;8,99;0,97;-8,0;3,99
$33,71635;-112,47001;152;222;5,40;2,32;1,17;4,73
$33,71648;-112,47005;157;226;8,65;-6,30;5,44;2,32
$33,71657;-112,47008;162;227;9,21;2,51;-8,0;3,82
$33,71668;-112,47012;164;228;4,47;-1,85;3,41;2,22
$33,71680;-112,47017;166;229;8,70;2,43;-8,0;2,42
$33,71689;-112,47021;169;228;5,78;3,84;0,65;4,27
$33,71701;-112,47027;172;229;6,3;-4,30;3,50;-2,36
$33,71710;-112,47031;177;229;8,55;-3,3;-8,0;0,28
$33,71721;-112,47037;180;228;7,8;-3,72;5,89;-1,25
$33,71733;-112,47042;184;229;10,74;-7,62;7,23;2,23
$33,71743;-112,47047;188;228;8,28;0,3;-8,0;2,15
$33,71754;-112,47052;192;227;5,88;4,91;-1,35;2,94
$33,71766;-112,47058;198;226;4,71;-3,26;3,30;0,79
$33,71775;-112,47063;204;225;4,3;0,47;2,53;3,9
$33,71785;-112,47070;210;226;6,57;-5,15;4,3;0,58
$33,71794;-112,47075;217;227;8,70;2,96;-8,0;1,72
$33,71804;-112,47083;224;226;3,78;0,7;3,76;0,33
$33,71814;-112,47091;229;229;8,36;2,28;5,66;5,71
$33,71821;-112,47099;235;225;7,63;-3,12;3,63;5,94
$33,71828;-112,47110;238;223;13,85;7,99;-8,0;7,99
$33,71832;-112,47123;245;195;12,61;7,99;5,57;7,99
$33,71830;-112,47133;249;210;10,18;3,43;5,29;7,99
$33,71825;-112,47145;254;207;9,87;-5,7;2,77;7,99
$33,71818;-112,47156;258;206;12,16;-8,0;4,47;7,99
$33,71811;-112,47161;257;205;11,35;7,99;0,93;7,99
$33,71801;-112,47165;258;201;9,86;3,36;6,85;6,24
$33,71793;-112,47166;258;199;5,14;0,38;3,68;3,56
$33,71782;-112,47164;257;200;9,26;-5,69;7,8;1,78
$33,71772;-112,47161;257;201;7,97;6,42;4,69;0,57
$33,71765;-112,47158;258;205;3,51;-1,7;2,62;2,8
$33,71755;-112,47153;260;208;9,2;-3,24;-8,0;2,62
$33,71746;-112,47149;263;211;5,59;3,19;1,15;4,44
$33,71738;-112,47145;267;212;4,75;-3,2;3,9;-1,96
$33,71728;-112,47140;269;213;5,69;2,52;4,49;2,41
$33,71717;-112,47134;273;215;9,17;-4,17;7,96;1,81
$33,71710;-112,47129;276;216;6,1;4,37;1,72;3,75
$33,71700;-112,47123;279;217;2,92;-1,85;2,1;-1,3
$33,71692;-112,47118;283;217;2,87;-1,16;0,53;-2,57
$33,71682;-112,47112;286;218;0,85;0,27;0,34;0,72
$33,71671;-112,47105;291;218;6,90;5,77;-1,72;3,37
$33,71663;-112,47101;295;218;5,73;4,81;-1,92;2,44
$33,71653;-112,47093;299;220;6,50;4,71;-2,75;3,53
$33,71642;-112,47086;304;217;5,51;4,92;1,18;2,19
$33,71634;-112,47082;310;217;6,76;5,21;-2,83;3,23
$33,71623;-112,47075;314;215;8,74;5,86;-4,92;4,21
$33,71613;-112,47069;319;214;6,71;5,17;0,22;4,26
$33,71605;-112,47063;325;213;6,30;2,90;1,99;5,22
$33,71595;-112,47057;330;210;4,78;2,60;3,82;1,21
$33,71587;-112,47051;336;209;3,56;-1,41;3,11;0,97
$33,71577;-112,47044;340;208;9,22;7,63;-1,34;5,0
$33,71569;-112,47035;346;208;2,63;-1,36;1,16;-1,93
$33,71561;-112,47029;350;209;11,27;7,25;-8,0;3,21
$33,71553;-112,47019;352;211;9,35;-4,60;7,99;1,54
$33,71544;-112,47009;355;212;6,62;-2,8;1,75;6,3
$33,71540;-112,47000;356;209;12,88;6,27;-7,90;7,99
$33,71537;-112,46986;356;213;12,26;-7,82;7,67;5,50
$33,71537;-112,46975;353;210;11,33;-6,11;5,38;7,88
$33,71541;-112,46963;350;198;11,88;7,99;3,65;7,99
$33,71550;-112,46954;345;188;11,41;-5,52;7,20;6,91
$33,71556;-112,46951;340;185;11,31;7,99;0,15;7,99
$33,71567;-112,46949;336;199;4,28;0,79;3,56;2,22
$33,71578;-112,46950;333;205;9,8;-4,29;-8,0;0,26
$33,71587;-112,46951;331;213;4,58;2,51;2,21;3,12
$33,71599;-112,46954;329;220;4,54;-1,16;3,34;2,84
$33,71610;-112,46957;328;226;8,87;-3,15;-8,0;2,18
$33,71619;-112,46960;326;226;4,98;0,50;0,41;4,94
$33,71632;-112,46964;326;228;5,79;1,50;3,96;3,95
$33,71644;-112,46969;325;228;8,92;-1,74;-8,0;3,55
$33,71653;-112,46973;325;229;6,4;-4,14;-3,47;2,70
$33,71664;-112,46978;326;229;4,64;2,49;0,79;3,83
$33,71677;-112,46984;326;231;4,69;-1,22;4,52;0,15
$33,71685;-112,46989;327;230;10,81;5,97;-8,0;4,15
$33,71697;-112,46996;327;230;4,91;4,83;0,29;0,80
$33,71705;-112,47001;328;231;4,75;2,66;3,92;0,14
$33,71716;-112,47008;329;231;2,18;0,53;0,79;-1,96
$33,71727;-112,47015;331;230;7,37;3,60;6,16;1,84
$33,71736;-112,47021;332;230;9,2;2,86;-8,0;3,3
$33,71746;-112,47029;334;230;2,55;-1,54;1,9;-1,70
$33,71755;-112,47034;336;230;10,5;1,93;-8,0;5,78
$33,71766;-112,47042;339;229;8,13;-3,95;6,81;2,2
$33,71777;-112,47050;342;226;6,43;1,67;6,10;-1,15
$33,71785;-112,47057;346;226;9,27;1,93;-8,0;4,28
$33,71795;-112,47066;349;225;8,5;5,27;0,60;6,5
$33,71804;-112,47076;352;223;5,16;2,8;-1,45;4,49
$33,71811;-112,47083;356;224;10,68;2,35;6,68;7,99
$33,71818;-112,47095;359;230;13,77;7,85;-8,0;7,99
$33,71823;-112,47108;362;214;9,52;2,77;4,35;7,99
$33,71823;-112,47119;365;212;13,85;7,99;7,99;7,99
$33,71818;-112,47132;366;216;11,76;-8,0;3,22;7,99
$33,71811;-112,47143;367;206;10,47;-6,62;7,61;2,83
$33,71804;-112,47147;363;199;6,60;-2,77;4,94;3,39
$33,71793;-112,47150;358;203;9,26;-2,33;-8,0;4,4
$33,71785;-112,47151;349;202;9,76;0,67;-8,0;5,55
$33,71773;-112,47150;346;204;4,88;1,95;3,4;-3,27
$33,71762;-112,47148;341;208;8,21;5,69;-1,80;5,63
$33,71754;-112,47147;338;209;5,61;-4,84;0,24;2,81
$33,71743;-112,47144;335;211;6,62;4,93;3,45;2,74
$33,71731;-112,47141;332;213;7,54;3,52;-3,47;5,70
$33,71723;-112,47137;330;215;8,67;-2,34;-8,0;2,39
$33,71712;-112,47132;330;216;8,71;-2,67;-8,0;2,19
$33,71701;-112,47127;330;218;8,33;-1,95;-8,0;1,28
$33,71693;-112,47121;330;219;8,77;0,83;-8,0;3,50
$33,71682;-112,47115;330;218;5,11;1,24;3,34;-3,66
$33,71674;-112,47110;331;223;2,81;0,89;0,59;-2,60
$33,71663;-112,47104;331;222;3,94;1,18;2,45;-2,85
$33,71652;-112,47097;333;220;4,94;4,23;2,41;0,82
$33,71644;-112,47092;334;220;3,68;3,17;0,32;1,83
$33,71633;-112,47086;335;220;8,67;5,10;-2,19;6,65
$33,71622;-112,47080;337;218;9,0;0,40;-8,0;4,11
$33,71614;-112,47076;340;218;9,85;3,0;-8,0;4,89
$33,71604;-112,47069;342;217;8,70;0,73;-8,0;3,34
$33,71594;-112,47060;345;217;9,14;-3,14;-8,0;3,13
$33,71587;-112,47055;346;217;2,86;1,34;2,39;0,82
$33,71578;-112,47044;348;220;11,39;7,99;1,36;7,99
$33,71573;-112,47034;349;218;10,56;5,64;-3,97;7,99
$33,71569;-112,47021;350;221;13,17;-6,74;7,99;7,99
$33,71570;-112,47005;351;229;11,37;7,99;1,17;7,99
$33,71573;-112,46995;350;224;9,73;-5,52;0,35;7,99
$33,71581;-112,46985;349;208;10,69;5,57;-4,39;7,99
$33,71593;-112,46980;349;212;13,85;7,99;7,99;7,99
$33,71602;-112,46979;350;220;10,44;-6,65;7,99;0,89
$33,71613;-112,46980;351;218;8,19;4,23;-6,59;2,37
$33,71626;-112,46983;351;218;5,67;-3,34;4,51;0,77
$33,71635;-112,46985;351;222;9,0;-4,12;-8,0;0,12
$33,71647;-112,46989;351;222;5,21;3,7;0,13;4,20
$33,71655;-112,46992;350;223;6,6;-3,66;4,48;1,79
$33,71667;-112,46996;350;226;2,96;1,12;0,25;2,73
$33,71679;-112,47002;350;226;6,20;-3,4;4,70;2,66
$33,71688;-112,47005;350;226;8,95;-3,6;-8,0;2,59
$33,71700;-112,47011;350;229;5,24;0,72;4,56;2,47
$33,71711;-112,47017;351;228;6,68;1,95;3,79;5,14
$33,71720;-112,47021;352;228;6,22;-5,0;-2,88;2,31
$33,71732;-112,47027;352;228;4,55;0,3;3,68;2,67
$33,71743;-112,47033;354;228;6,21;3,72;4,91;0,78
$33,71752;-112,47038;355;228;3,71;-1,80;3,10;0,96
$33,71763;-112,47045;356;229;6,22;-5,21;1,49;3,6
$33,71772;-112,47050;358;227;7,73;6,13;1,8;4,58
$33,71782;-112,47058;360;229;4,38;-2,89;3,27;0,43
$33,71793;-112,47067;361;230;8,62;4,3;-2,28;7,26
$33,71800;-112,47074;362;231;8,19;-5,75;4,74;3,41
$33,71809;-112,47085;363;231;10,90;2,71;6,90;7,99
$33,71817;-112,47097;364;237;10,61;6,41;-2,74;7,99
$33,71820;-112,47108;366;236;12,61;-6,34;7,99;7,41
$33,71819;-112,47123;366;220;12,45;7,27;-6,18;7,99
$33,71814;-112,47136;364;217;12,75;5,89;-8,0;7,99
$33,71808;-112,47144;359;209;10,50;4,0;5,50;7,99
$33,71798;-112,47150;353;177;5,93;-4,26;3,93;1,25
$33,71791;-112,47150;345;206;9,45;0,77;-7,75;5,35
$33,71778;-112,47147;341;213;5,77;1,59;4,88;2,63
$33,71768;-112,47146;340;205;7,87;3,90;0,12;6,83
$33,71760;-112,47144;341;205;8,24;-1,33;-8,0;1,50
$33,71749;-112,47141;342;206;6,64;0,53;6,40;1,67
$33,71738;-112,47139;343;206;6,78;5,17;4,34;0,67
$33,71730;-112,47137;345;210;8,30;-2,20;-8,0;0,40
$33,71719;-112,47133;347;209;8,92;-3,60;-8,0;1,62
$33,71710;-112,47130;349;212;6,35;-1,5;5,71;2,57
$33,71700;-112,47124;350;214;4,31;2,46;3,26;-1,34
$33,71689;-112,47119;352;213;4,22;-2,81;3,7;0,62
$33,71681;-112,47115;355;213;6,63;-1,81;5,99;2,15
$33,71671;-112,47109;356;212;6,36;3,82;4,76;1,80
$33,71659;-112,47103;359;212;10,17;7,21;6,61;2,77
$33,71652;-112,47099;362;212;9,43;-4,26;-8,0;2,60
$33,71642;-112,47092;364;211;5,92;4,88;0,2;3,36
$33,71632;-112,47086;367;210;9,81;3,64;-6,56;6,32
$33,71624;-112,47080;371;209;4,42;-3,75;-1,21;1,98
$33,71614;-112,47073;374;208;5,32;3,70;3,31;-1,91
$33,71607;-112,47066;377;209;5,83;-4,6;3,34;2,50
$33,71598;-112,47058;380;210;3,92;0,41;1,88;3,42
$33,71589;-112,47049;383;211;2,77;-1,44;2,14;-1,0
$33,71583;-112,47042;384;213;13,54;7,44;-8,0;7,99
$33,71576;-112,47029;385;214;11,74;-4,39;7,38;7,99
$33,71573;-112,47016;385;209;10,70;4,96;-5,9;7,99
$33,71574;-112,47005;383;200;9,89;4,1;-4,20;7,99
$33,71579;-112,46993;380;208;10,21;1,3;6,26;7,99
$33,71585;-112,46986;378;212;12,46;-7,26;7,99;6,22
$33,71595;-112,46980;377;197;11,83;4,84;-7,25;7,99
$33,71605;-112,46976;378;197;8,81;0,2;-8,0;3,71
$33,71613;-112,46975;379;200;3,87;0,87;0,12;-3,77
$33,71625;-112,46974;380;213;8,39;-4,99;-6,54;1,67
$33,71637;-112,46974;382;217;3,97;-1,78;3,0;-1,89
$33,71646;-112,46975;382;218;8,95;-3,92;-8,0;0,84
$33,71658;-112,46976;382;216;7,51;2,90;1,9;6,84
$33,71670;-112,46977;382;217;7,93;-4,39;6,30;1,94
$33,71679;-112,46980;382;219;5,90;2,36;4,75;-2,59
$33,71690;-112,46983;383;224;4,90;4,10;0,94;2,50
$33,71703;-112,46987;383;223;8,71;-4,42;7,10;-2,43
$33,71711;-112,46990;384;227;7,92;5,56;-1,63;5,40
$33,71723;-112,46995;385;227;7,84;-3,94;6,18;2,78
$33,71733;-112,46999;386;227;6,13;4,82;3,19;2,3
$33,71744;-112,47003;386;227;4,19;-2,64;3,16;0,80
$33,71756;-112,47009;388;226;5,20;-2,62;-3,94;2,15
$33,71764;-112,47014;390;227;8,90;7,99;0,35;3,89
$33,71775;-112,47021;391;228;2,92;1,37;1,50;-2,9
$33,71787;-112,47029;392;228;8,5;2,67;1,45;7,45
$33,71795;-112,47036;393;231;11,31;0,29;-8,0;7,99
$33,71804;-112,47047;393;236;11,42;7,99;1,61;7,99
$33,71811;-112,47060;394;231;5,87;0,8;1,65;5,63
$33,71814;-112,47070;393;228;7,57;-5,67;3,45;3,62
$33,71816;-112,47086;393;227;10,11;3,14;-5,33;7,99
$33,71815;-112,47097;392;234;9,87;2,22;5,35;7,99
$33,71811;-112,47112;389;224;13,69;7,71;-8,0;7,99
$33,71804;-112,47124;385;229;9,83;-8,0;4,18;3,88
$33,71796;-112,47130;382;216;12,17;4,49;-8,0;7,99
$33,71785;-112,47133;381;214;3,74;2,14;1,55;-2,65
$33,71773;-112,47134;380;215;5,73;-1,64;5,30;1,45
$33,71764;-112,47134;379;216;3,48;-1,21;2,51;-2,9
$33,71753;-112,47134;378;212;6,22;0,13;3,8;5,40
$33,71741;-112,47131;376;212;9,48;3,8;-7,20;5,34
$33,71732;-112,47130;375;213;4,61;-3,67;2,74;0,49
$33,71721;-112,47127;375;216;3,54;-1,75;2,25;-2,8
$33,71712;-112,47123;375;217;3,5;-1,72;1,92;-1,63
$33,71701;-112,47119;375;217;4,91;4,80;0,82;0,63
$33,71690;-112,47115;376;218;5,42;4,83;2,28;0,96
$33,71681;-112,47112;376;219;5,23;4,17;1,74;2,63
$33,71670;-112,47106;377;219;6,66;3,97;-1,80;5,3
$33,71658;-112,47102;378;220;6,94;2,42;-3,7;5,73
$33,71650;-112,47098;379;220;9,16;2,31;-8,0;3,83
$33,71638;-112,47092;380;220;6,39;2,54;-4,71;3,47
$33,71630;-112,47089;381;219;9,62;7,99;0,23;5,35
$33,71619;-112,47083;383;218;5,29;3,33;0,19;4,10
$33,71608;-112,47077;384;217;4,35;1,23;1,1;4,5
$33,71600;-112,47072;386;217;8,34;7,1;1,8;4,38
$33,71590;-112,47065;388;216;7,38;2,1;1,49;6,94
$33,71580;-112,47057;390;215;9,0;-1,83;-8,0;3,69
$33,71574;-112,47049;392;215;9,93;-4,75;7,94;3,59
$33,71567;-112,47038;394;216;10,70;-3,65;6,10;7,99
$33,71564;-112,47024;397;213;13,85;7,99;-8,0;7,99
$33,71566;-112,47014;398;210;11,92;-8,0;3,76;7,99
$33,71572;-112,47002;397;210;11,38;7,99;1,24;7,99
$33,71582;-112,46996;395;214;13,85;7,99;-8,0;7,99
$33,71591;-112,46995;395;215;11,43;7,99;-1,63;7,99
$33,71603;-112,46997;394;217;8,80;-2,54;-8,0;2,64
$33,71611;-112,47000;394;214;3,92;1,23;3,58;1,3
$33,71622;-112,47005;393;215;10,62;-6,98;7,99;0,28
$33,71634;-112,47009;393;220;8,44;3,27;7,22;-2,88
$33,71642;-112,47013;393;222;6,85;-1,56;6,37;1,95
$33,71654;-112,47018;393;223;6,58;-1,40;6,3;2,23
$33,71665;-112,47024;393;224;10,31;-6,50;-8,0;0,11
$33,71674;-112,47028;393;225;2,42;1,63;0,85;1,57
$33,71685;-112,47033;394;226;8,30;-1,17;-8,0;1,87
$33,71697;-112,47038;394;225;5,12;-4,69;0,68;1,94
$33,71706;-112,47042;394;226;7,95;6,16;5,2;0,12
$33,71718;-112,47046;395;227;1,61;0,3;1,44;0,71
$33,71727;-112,47049;396;227;5,34;4,49;2,44;-1,54
$33,71740;-112,47052;398;225;7,38;5,41;4,12;2,86
$33,71752;-112,47055;400;224;2,44;1,14;2,15;0,14
$33,71761;-112,47057;402;221;8,14;3,57;1,15;7,22
$33,71772;-112,47060;405;220;8,59;-1,79;-8,0;2,58
$33,71784;-112,47065;408;220;4,77;3,49;2,83;1,60
$33,71793;-112,47069;412;222;9,63;-5,36;-8,0;0,28
$33,71804;-112,47075;414;223;5,68;2,49;4,74;1,90
$33,71815;-112,47081;416;225;13,58;7,99;7,52;7,99
$33,71823;-112,47087;417;223;13,35;7,10;-8,0;7,99
$33,71831;-112,47096;417;219;11,22;5,68;-5,44;7,99
$33,71835;-112,47106;416;204;10,17;-2,62;5,71;7,99
$33,71836;-112,47117;415;169;10,30;-8,0;5,85;2,81
$33,71835;-112,47125;411;114;11,36;-1,96;7,99;7,83
$33,71834;-112,47129;404;99;8,60;-6,23;5,3;3,13
$33,71827;-112,47133;400;169;10,16;2,10;-8,0;5,90
$33,71821;-112,47135;398;150;5,75;3,64;4,41;0,63
$33,71813;-112,47136;401;156;10,65;0,96;-8,0;6,97
$33,71803;-112,47135;401;190;7,55;5,50;2,55;4,49
$33,71791;-112,47133;401;198;10,39;-6,50;-8,0;1,35
$33,71783;-112,47131;400;203;9,64;6,7;7,44;0,84
$33,71772;-112,47128;399;210;6,57;4,8;3,30;3,94
$33,71764;-112,47125;397;210;8,18;-5,52;-5,83;1,55
$33,71753;-112,47121;396;212;6,66;-3,32;4,48;3,63
$33,71741;-112,47117;395;213;5,17;4,2;1,89;2,64
$33,71733;-112,47114;394;213;8,45;-2,66;-8,0;0,63
$33,71722;-112,47108;393;216;5,18;0,96;4,84;1,59
$33,71710;-112,47104;393;217;7,8;4,25;-3,30;4,59
$33,71702;-112,47101;392;218;7,10;2,69;0,84;6,51
$33,71691;-112,47095;392;220;7,68;2,80;-4,33;5,69
$33,71682;-112,47090;392;221;7,78;3,71;-1,96;6,55
$33,71671;-112,47085;393;220;5,6;-4,87;1,37;0,20
$33,71660;-112,47079;394;220;3,74;-2,5;3,12;0,11
$33,71651;-112,47073;396;219;3,99;-2,19;2,37;-2,34
$33,71642;-112,47066;397;217;2,79;-1,76;2,16;0,5
$33,71632;-112,47057;399;217;5,11;0,85;-4,54;2,19
$33,71625;-112,47050;401;217;8,78;-1,99;-8,0;3,4
$33,71616;-112,47041;401;219;8,37;-4,84;5,70;3,73
$33,71608;-112,47029;401;228;10,74;1,77;6,95;7,99
$33,71603;-112,47019;401;219;10,9;-5,31;3,9;7,99
$33,71603;-112,47005;401;210;11,82;-8,0;3,44;7,99
$33,71605;-112,46996;399;210;9,75;3,70;4,17;7,99
$33,71611;-112,46984;396;198;11,32;7,99;0,39;7,99
$33,71620;-112,46978;393;202;6,49;-5,2;3,31;2,43
$33,71629;-112,46976;394;212;4,33;0,13;2,17;3,74
$33,71641;-112,46974;394;216;9,60;5,19;1,11;7,99
$33,71653;-112,46974;396;216;8,62;-3,1;7,99;1,12
$33,71661;-112,46974;397;218;5,75;-4,88;1,95;-2,31
$33,71674;-112,46974;398;219;5,37;3,85;-2,48;2,80
$33,71685;-112,46975;399;219;2,50;0,69;1,36;-1,98
$33,71695;-112,46976;400;221;8,49;5,17;0,85;6,67
$33,71707;-112,46979;401;222;9,27;-4,45;7,99;1,50
$33,71716;-112,46980;401;223;3,57;0,97;1,73;-2,97
$33,71727;-112,46984;401;221;3,45;2,42;0,24;2,45
$33,71740;-112,46988;403;224;3,41;-1,70;2,93;0,37
$33,71748;-112,46992;403;226;8,25;0,36;-8,0;2,0
$33,71759;-112,46997;404;226;3,71;2,30;2,75;0,96
$33,71771;-112,47003;406;227;3,54;2,43;1,95;1,68
$33,71779;-112,47008;408;227;9,67;5,44;7,99;0,8
$33,71791;-112,47015;410;227;8,99;4,27;4,24;6,67
$33,71801;-112,47022;412;227;8,8;0,89;-8,0;0,76
$33,71809;-112,47029;414;226;11,78;7,99;4,66;7,27
$33,71819;-112,47037;415;225;9,1;-3,75;-8,0;1,78
$33,71827;-112,47044;418;225;10,91;7,7;7,99;-2,23
$33,71835;-112,47055;419;224;10,4;1,88;-8,0;5,78
$33,71843;-112,47066;419;222;7,15;0,55;3,4;6,45
$33,71847;-112,47075;420;220;10,85;0,76;7,29;7,99
$33,71851;-112,47089;420;225;11,33;7,99;0,75;7,99
$33,71851;-112,47104;419;225;11,8;-8,0;2,87;7,11
$33,71847;-112,47114;416;225;11,44;1,72;7,99;7,99
$33,71840;-112,47125;412;215;10,9;7,99;-4,84;3,81
$33,71833;-112,47132;409;209;11,15;4,68;6,44;7,81
$33,71822;-112,47138;405;211;10,35;1,19;-8,0;6,45
$33,71811;-112,47143;403;215;8,75;2,79;3,91;7,31
$33,71802;-112,47144;401;216;2,89;-1,41;1,42;-2,8
$33,71790;-112,47147;400;216;8,90;-3,43;-8,0;1,86
$33,71778;-112,47147;398;217;2,78;-2,16;0,72;1,58
$33,71769;-112,47147;397;216;6,85;-3,46;5,91;0,22
$33,71757;-112,47144;396;217;6,35;-3,35;5,37;0,42
$33,71746;-112,47140;395;216;5,32;2,17;3,50;3,37
$33,71737;-112,47136;395;218;3,4;-1,33;1,88;1,98
$33,71726;-112,47131;395;218;3,80;1,18;2,37;2,73
$33,71718;-112,47127;395;219;7,91;4,41;-3,71;5,40
$33,71707;-112,47120;396;219;7,94;3,30;-5,92;4,14
$33,71696;-112,47114;396;220;8,76;4,44;7,11;2,55
$33,71688;-112,47108;397;220;7,39;-1,54;7,6;1,56
$33,71677;-112,47102;397;220;8,5;-1,85;7,82;0,53
$33,71667;-112,47095;398;220;6,36;0,71;6,5;1,83
$33,71658;-112,47090;399;221;3,75;0,88;1,74;3,20
$33,71648;-112,47083;400;219;6,51;-3,71;5,8;1,66
$33,71638;-112,47076;402;219;2,67;-1,63;0,30;-2,9
$33,71629;-112,47070;404;218;2,95;-1,46;1,20;-2,27
$33,71619;-112,47063;405;218;3,56;-2,35;2,53;0,87
$33,71610;-112,47055;407;217;8,39;-2,25;-8,0;1,16
$33,71603;-112,47047;408;216;9,96;2,9;-8,0;5,56
$33,71595;-112,47037;410;218;11,95;3,85;-8,0;7,99
$33,71590;-112,47029;411;219;11,41;4,33;6,88;7,99
$33,71587;-112,47014;411;221;11,0;-1,93;7,31;7,99
$33,71588;-112,46999;411;224;13,85;7,99;-8,0;7,99
$33,71590;-112,46989;410;211;11,47;7,99;1,90;7,99
$33,71598;-112,46980;407;199;11,61;-8,0;2,61;7,99
$33,71609;-112,46976;406;204;9,87;-3,60;6,83;6,15
$33,71618;-112,46978;408;216;6,43;-4,4;4,81;1,36
$33,71629;-112,46983;408;216;10,12;-7,65;6,38;1,76
$33,71640;-112,46987;408;217;3,7;1,67;1,81;1,83
$33,71648;-112,46992;407;217;1,44;0,49;1,17;0,66
$33,71659;-112,46998;406;219;3,20;0,21;2,50;1,99
$33,71667;-112,47003;406;221;3,18;0,26;2,15;2,33
$33,71678;-112,47010;405;223;9,38;-4,79;-8,0;1,2
$33,71689;-112,47018;405;224;4,59;-1,55;3,73;2,17
$33,71697;-112,47023;405;225;8,47;1,48;-8,0;2,38
$33,71708;-112,47030;406;226;3,35;2,8;0,62;2,54
$33,71720;-112,47037;406;227;3,34;-1,92;2,30;1,45
$33,71729;-112,47041;407;227;9,52;1,21;-8,0;5,2
$33,71740;-112,47045;408;227;5,5;-3,19;3,84;0,72
$33,71749;-112,47048;409;226;7,63;1,4;2,74;7,4
$33,71762;-112,47052;411;224;8,6;-1,2;-8,0;0,12
$33,71773;-112,47055;413;222;9,35;7,96;4,84;0,71
$33,71782;-112,47057;417;220;8,25;-1,0;-8,0;1,77
$33,71795;-112,47061;419;220;9,84;5,52;7,99;-1,52
$33,71806;-112,47066;423;221;10,9;5,9;-4,41;7,51
$33,71814;-112,47070;426;224;7,34;6,75;2,89;0,1
$33,71825;-112,47076;427;228;12,15;7,99;7,99;4,43
$33,71837;-112,47083;429;226;13,38;7,99;7,14;7,99
$33,71844;-112,47090;429;225;11,29;-4,51;7,99;6,57
$33,71850;-112,47104;431;225;13,11;6,93;-7,73;7,99
$33,71851;-112,47118;434;210;12,19;6,57;-6,44;7,99
$33,71850;-112,47128;436;206;10,30;4,93;-4,22;7,99
$33,71842;-112,47138;438;209;10,40;2,61;-8,0;6,11
$33,71835;-112,47144;438;206;12,6;7,99;-4,19;7,99
$33,71824;-112,47147;435;196;9,71;4,42;5,57;6,61
$33,71812;-112,47148;425;200;10,18;4,47;4,43;7,99
$33,71804;-112,47147;420;200;10,29;6,99;6,19;4,32
$33,71794;-112,47144;416;202;9,66;1,4;-8,0;5,31
$33,71783;-112,47141;413;204;8,39;5,98;5,35;-2,42
$33,71775;-112,47137;412;205;4,12;0,28;3,84;1,46
$33,71765;-112,47132;411;207;5,76;-2,15;4,79;2,36
$33,71756;-112,47129;410;209;8,25;-1,36;-8,0;1,48
$33,71746;-112,47124;409;211;8,83;-4,40;-7,34;2,16
$33,71734;-112,47118;408;213;3,83;-2,13;2,9;2,39
$33,71726;-112,47115;408;215;5,62;2,43;3,6;4,4
$33,71715;-112,47109;408;217;10,10;-6,17;-8,0;0,21
$33,71704;-112,47103;408;218;8,26;7,99;2,5;0,41
$33,71695;-112,47099;408;217;7,6;3,40;0,95;6,11
$33,71684;-112,47093;408;217;9,68;4,82;-7,2;4,60
$33,71674;-112,47088;409;217;4,44;-3,67;0,59;2,43
$33,71665;-112,47083;410;218;3,67;0,13;3,29;1,62
$33,71654;-112,47077;411;218;5,4;-1,67;3,20;3,51
$33,71646;-112,47073;413;218;6,23;-2,45;4,29;3,78
$33,71635;-112,47066;414;217;5,50;-2,62;3,53;3,29
$33,71625;-112,47059;416;217;5,13;0,27;2,66;4,37
$33,71617;-112,47053;418;217;3,2;1,40;1,83;1,94
$33,71607;-112,47044;419;218;7,67;2,44;3,75;6,23
$33,71598;-112,47035;419;219;10,30;-6,95;4,46;6,16
$33,71593;-112,47026;420;227;12,0;7,99;4,2;7,99
$33,71589;-112,47012;419;230;12,77;6,25;7,75;7,99
$33,71590;-112,46997;417;230;10,42;4,96;-4,48;7,99
$33,71592;-112,46986;412;211;8,50;-2,78;0,78;7,99
$33,71597;-112,46976;406;172;10,53;0,13;6,92;7,93
$33,71602;-112,46970;396;138;9,6;7,99;2,84;3,18
$33,71608;-112,46966;387;131;3,93;0,36;2,17;3,26
$33,71613;-112,46962;373;120;4,18;-3,69;0,35;1,92
$33,71618;-112,46960;364;103;11,22;7,54;7,99;2,26
$33,71624;-112,46960;356;120;7,68;-4,16;4,53;4,59
$33,71631;-112,46960;345;116;7,63;5,43;2,51;4,73
$33,71636;-112,46960;337;134;6,40;0,17;3,63;5,26
$33,71645;-112,46965;334;166;8,17;0,28;-8,0;1,65
$33,71652;-112,46968;331;177;7,99;-1,28;7,77;1,33
$33,71662;-112,46973;328;183;5,2;1,48;0,57;4,76
$33,71672;-112,46978;326;196;8,62;0,99;-8,0;3,5
$33,71680;-112,46982;324;201;7,8;-4,25;5,61;0,78
$33,71690;-112,46988;323;207;8,78;5,95;4,70;4,42
$33,71701;-112,46994;324;209;8,97;-2,63;-8,0;3,10
$33,71709;-112,46999;325;211;8,68;-3,31;7,99;0,70
$33,71720;-112,47005;327;214;8,81;4,64;7,11;-2,35
$33,71729;-112,47014;329;212;10,1;2,65;-8,0;5,40
$33,71736;-112,47021;331;218;9,30;2,85;3,81;7,99
$33,71746;-112,47030;332;216;3,78;0,84;3,26;1,71
$33,71754;-112,47040;333;214;4,45;0,89;2,59;3,51
$33,71759;-112,47049;334;215;13,85;7,99;-8,0;7,99
$33,71763;-112,47062;337;207;9,7;0,16;4,28;7,99
$33,71762;-112,47073;342;201;11,32;7,99;0,47;7,99
$33,71758;-112,47086;345;235;13,38;7,99;7,14;7,99
$33,71749;-112,47098;348;241;13,42;-8,0;7,21;7,99
$33,71742;-112,47105;348;237;10,98;-6,75;7,99;3,31
$33,71733;-112,47114;345;219;11,31;7,99;0,18;7,99
$33,71723;-112,47115;335;172;11,55;7,99;-2,32;7,99
$33,71717;-112,47115;319;164;5,75;1,98;3,44;4,16
$33,71707;-112,47107;302;219;6,17;0,72;6,13;0,5
$33,71698;-112,47097;264;246;9,72;4,70;7,99;-2,90
$33,71688;-112,47083;220;251;10,18;4,91;-7,45;4,88
$33,71680;-112,47076;214;232;6,2;3,95;4,53;0,23
$33,71674;-112,47071;211;228;10,75;6,41;-3,22;7,99
$33,71664;-112,47063;203;214;7,34;4,67;5,23;2,17
$33,71656;-112,47056;209;213;4,40;-3,46;0,98;2,54
$33,71650;-112,47050;208;211;4,51;-1,68;4,2;1,18
$33,71641;-112,47042;207;210;9,62;-5,34;-8,0;0,30
$33,71631;-112,47034;206;210;7,89;-2,40;7,48;0,70
$33,71624;-112,47028;205;209;3,85;0,77;0,12;3,77
$33,71614;-112,47021;206;205;8,91;3,96;-7,96;0,45
$33,71606;-112,47015;209;203;5,8;2,51;1,67;4,8
$33,71599;-112,47012;214;200;5,17;-1,54;-3,0;3,92
$33,71590;-112,47007;220;197;6,52;-3,30;5,50;-1,11
$33,71583;-112,47004;229;194;8,78;-2,72;-8,0;2,39
$33,71575;-112,47000;236;191;8,34;7,99;0,26;2,36
$33,71567;-112,46996;246;187;10,78;-8,0;6,34;-3,45
$33,71560;-112,46992;253;185;8,30;1,33;7,99;1,77
$33,71553;-112,46985;257;183;8,58;0,7;7,99;3,12
$33,71545;-112,46977;261;183;7,63;3,75;5,23;4,9
$33,71540;-112,46971;265;184;8,15;0,30;7,78;2,39
$33,71534;-112,46963;267;185;9,53;7,25;-6,2;1,36
$33,71527;-112,46954;271;183;11,32;7,92;-5,98;5,44
$33,71524;-112,46946;273;183;13,85;7,99;-8,0;7,99
$33,71521;-112,46935;276;179;12,85;7,90;-8,0;6,22
$33,71519;-112,46927;280;179;10,64;7,99;-6,75;-1,91
$33,71519;-112,46915;282;179;9,34;-8,0;3,32;-3,50
$33,71520;-112,46903;285;178;10,71;-8,0;7,9;0,74
$33,71521;-112,46894;289;178;9,88;-5,31;7,99;2,32
$33,71523;-112,46883;291;180;7,74;2,12;5,32;5,20
$33,71525;-112,46871;293;181;9,39;5,82;-4,58;5,76
$33,71528;-112,46863;296;180;4,2;-3,48;1,98;0,29
$33,71533;-112,46852;297;181;11,31;-8,0;7,99;0,35
$33,71538;-112,46842;299;180;10,54;-6,84;7,80;1,84
$33,71543;-112,46835;303;182;6,72;2,27;-3,93;4,96
$33,71551;-112,46827;306;185;4,62;-4,21;1,13;1,53
$33,71558;-112,46822;310;184;8,73;4,13;2,7;7,40
$33,71568;-112,46818;314;186;11,46;7,31;-3,75;7,99
$33,71578;-112,46815;317;186;6,4;0,90;-4,63;3,78
$33,71586;-112,46814;320;186;6,34;0,91;5,94;2,3
$33,71597;-112,46814;323;185;5,50;0,36;-3,79;3,96
$33,71607;-112,46814;325;182;11,8;-7,60;7,99;-1,1
$33,71615;-112,46815;328;184;3,24;1,67;0,61;2,71
$33,71626;-112,46816;331;183;3,55;1,98;-2,56;1,46
$33,71633;-112,46818;334;183;9,79;3,94;-8,0;4,5
$33,71643;-112,46821;336;181;8,12;0,29;7,99;1,40
$33,71653;-112,46825;340;181;7,55;4,41;-4,40;4,26
$33,71661;-112,46828;344;182;6,92;4,22;-3,56;4,17
$33,71671;-112,46832;345;182;2,9;0,27;-1,83;0,97
$33,71680;-112,46837;348;183;5,63;2,61;4,95;0,52
$33,71687;-112,46841;349;181;4,7;-3,37;0,24;-2,25
$33,71696;-112,46847;350;183;8,7;0,9;7,99;1,11
$33,71706;-112,46853;352;182;5,8;2,74;3,23;2,80
$33,71712;-112,46857;353;181;5,79;1,67;5,22;1,86
$33,71721;-112,46865;355;184;8,4;0,25;7,99;0,82
$33,71727;-112,46871;358;183;1,95;0,87;0,77;-1,56
$33,71736;-112,46879;360;183;8,27;-1,84;7,99;1,5
$33,71744;-112,46887;363;184;4,38;-3,28;1,72;-2,33
$33,71750;-112,46894;365;183;5,3;2,35;-4,6;1,79
$33,71758;-112,46902;366;185;4,56;3,80;2,0;-1,53
$33,71766;-112,46912;367;186;5,11;-4,88;0,21;-1,52
$33,71772;-112,46918;368;186;6,25;3,65;3,56;3,60
$33,71778;-112,46927;368;184;4,56;1,69;0,91;4,13
$33,71785;-112,46936;369;184;7,38;-2,30;6,98;0,69
$33,71790;-112,46944;371;183;7,10;-1,98;6,65;1,50
$33,71797;-112,46954;374;181;6,47;0,10;6,42;0,79
$33,71802;-112,46962;380;180;3,87;0,13;3,75;0,94
$33,71808;-112,46973;384;179;5,73;4,65;0,26;3,34
$33,71813;-112,46983;387;177;2,60;-1,43;-2,17;0,9
$33,71817;-112,46992;390;175;6,90;-4,37;5,30;0,53
$33,71821;-112,47002;392;174;7,0;-2,22;6,49;1,36
$33,71824;-112,47014;394;172;1,11;0,62;0,29;0,88
$33,71827;-112,47022;396;172;1,72;-1,60;0,3;0,63
$33,71829;-112,47034;396;170;3,68;2,51;-1,11;2,45
$33,71831;-112,47045;397;169;4,5;0,72;0,42;3,96
$33,71831;-112,47054;398;167;3,81;0,94;-1,39;3,41
$33,71831;-112,47065;399;168;3,58;1,80;-1,20;2,85
$33,71830;-112,47073;401;166;4,13;0,6;-1,41;3,88
$33,71827;-112,47083;403;163;3,36;-2,16;0,46;2,52
$33,71822;-112,47093;405;162;2,83;0,57;-1,13;2,52
$33,71819;-112,47101;408;161;1,98;0,64;0,75;1,72
$33,71813;-112,47108;410;161;4,61;2,92;3,43;0,95
$33,71807;-112,47115;411;158;3,18;0,1;0,55;3,14
$33,71801;-112,47119;413;157;1,87;0,80;0,63;1,57
$33,71794;-112,47124;413;157;2,31;-1,11;1,88;0,76
$33,71786;-112,47128;413;154;5,60;1,27;5,45;0,0
$33,71780;-112,47131;414;153;3,69;2,26;0,32;2,90
$33,71772;-112,47132;413;152;1,50;0,9;0,58;1,38
$33,71766;-112,47133;411;152;6,30;2,76;5,64;0,42
$33,71757;-112,47134;410;153;7,54;5,84;-1,4;4,65
$33,71749;-112,47133;408;154;5,52;1,89;5,15;0,61
$33,71743;-112,47132;406;154;5,17;4,15;0,93;2,94
$33,71734;-112,47131;405;154;3,35;2,81;0,80;1,63
$33,71726;-112,47128;405;154;2,67;0,64;0,4;2,59
$33,71721;-112,47125;405;154;7,46;5,4;-1,57;5,27
$33,71713;-112,47121;405;154;3,42;-1,57;-1,96;2,32
$33,71706;-112,47116;406;154;3,47;0,17;0,29;3,45
$33,71701;-112,47112;406;154;6,43;4,54;-1,51;4,29
$33,71695;-112,47105;406;153;5,38;4,25;-1,39;2,99
$33,71690;-112,47101;407;152;3,95;-3,13;1,37;1,98
$33,71685;-112,47092;408;148;6,60;5,58;0,66;3,46
$33,71681;-112,47084;409;144;7,25;6,38;0,24;3,44
$33,71678;-112,47078;410;141;3,28;2,41;0,83;2,6
$33,71676;-112,47070;411;138;3,13;2,47;0,38;1,88
$33,71674;-112,47060;412;134;3,14;-2,28;1,78;1,21
$33,71674;-112,47054;413;133;3,59;1,84;-1,20;2,83
$33,71674;-112,47045;415;131;2,15;0,52;1,51;1,43
$33,71675;-112,47037;416;130;2,56;-1,18;1,88;1,28
$33,71677;-112,47031;417;128;7,35;6,32;0,12;3,76
$33,71680;-112,47022;418;128;3,62;2,40;-2,18;1,58
$33,71682;-112,47017;419;126;2,37;0,34;0,74;2,22
$33,71686;-112,47010;420;125;4,44;-4,31;0,87;0,64
$33,71690;-112,47004;420;124;5,77;4,29;-1,59;3,51
$33,71694;-112,47000;420;122;4,48;3,37;2,95;0,9
$33,71700;-112,46995;419;122;3,7;0,42;-1,74;2,50
$33,71706;-112,46991;419;121;3,75;-3,35;1,25;1,11
$33,71710;-112,46989;419;122;8,11;6,80;-2,37;3,72
$33,71717;-112,46987;418;122;2,6;-1,51;0,65;1,24
$33,71724;-112,46986;417;122;1,99;-1,27;0,37;1,49
$33,71729;-112,46986;416;122;5,39;3,4;-3,49;2,76
$33,71736;-112,46986;415;121;3,10;1,40;0,85;2,62
$33,71740;-112,46988;415;122;6,19;-5,15;2,30;2,55
$33,71747;-112,46991;416;121;5,3;-3,74;3,23;0,91
$33,71753;-112,46994;418;122;4,70;4,11;0,2;2,28
$33,71758;-112,46996;418;121;1,8;0,70;0,6;0,82
$33,71764;-112,47000;417;120;5,70;1,61;-5,46;0,24
$33,71770;-112,47003;417;119;2,8;-1,22;1,53;0,70
$33,71775;-112,47006;417;119;1,55;0,32;0,0;1,51
$33,71781;-112,47010;417;118;5,65;4,97;-1,18;2,41
$33,71787;-112,47014;417;119;5,0;1,55;-4,49;1,54
$33,71791;-112,47017;417;118;2,76;2,68;0,22;0,63
$33,71796;-112,47021;417;117;4,79;0,41;4,62;1,19
$33,71800;-112,47025;416;116;4,10;0,33;3,89;1,23
$33,71805;-112,47030;417;115;1,52;-1,1;0,64;0,93
$33,71811;-112,47034;418;114;3,96;3,25;-1,73;1,43
$33,71814;-112,47039;419;113;3,53;3,42;0,61;0,59
$33,71818;-112,47044;420;111;4,21;2,57;-3,0;1,47
$33,71822;-112,47050;420;111;0,31;0,27;0,14;0,7
$33,71825;-112,47055;421;109;2,99;0,14;2,75;1,16
$33,71828;-112,47060;421;108;2,87;0,83;0,42;2,71
$33,71830;-112,47066;420;107;5,74;4,87;-1,46;2,65
$33,71833;-112,47072;420;106;2,33;0,63;0,38;2,21
$33,71834;-112,47079;420;104;1,4;0,23;0,8;1,0
$33,71835;-112,47084;420;104;1,42;1,25;0,7;0,65
$33,71837;-112,47091;420;102;1,18;0,31;0,81;0,79
$33,71837;-112,47097;420;101;1,51;0,48;0,11;1,42
$33,71838;-112,47102;420;99;1,74;0,4;0,57;1,64
$33,71838;-112,47109;420;100;1,60;0,53;0,26;1,49
$33,71837;-112,47115;420;96;1,75;0,55;0,44;1,59
$33,71837;-112,47120;420;94;1,29;0,53;0,40;1,11
$33,71835;-112,47127;420;91;1,23;0,57;0,7;1,9
$33,71834;-112,47130;420;90;1,47;0,53;0,16;1,36
$33,71832;-112,47136;421;87;1,41;0,41;0,42;1,28
$33,71831;-112,47141;421;88;0,82;0,33;0,8;0,75
$33,71828;-112,47144;421;86;0,92;0,42;0,16;0,80
$33,71826;-112,47149;421;86;0,94;0,36;0,8;0,86
$33,71824;-112,47153;421;85;0,84;0,35;0,7;0,75
$33,71821;-112,47157;420;84;1,34;0,33;0,24;1,27
$33,71818;-112,47161;420;83;1,73;0,48;0,26;1,64
$33,71814;-112,47164;419;82;1,32;0,45;0,7;1,24
$33,71811;-112,47166;419;82;1,48;0,44;0,0;1,42
$33,71808;-112,47169;419;81;1,54;0,35;0,12;1,49
$33,71805;-112,47171;418;81;1,0;0,40;0,12;0,91
$33,71801;-112,47173;418;80;1,12;0,44;0,26;1,0
$33,71796;-112,47174;417;79;1,35;0,44;0,15;1,26
$33,71793;-112,47175;416;79;1,71;0,50;0,28;1,61
$33,71789;-112,47175;416;78;1,55;0,48;0,30;1,45
$33,71785;-112,47175;415;78;1,22;0,40;0,25;1,12
$33,71782;-112,47175;415;77;1,56;0,46;0,26;1,46
$33,71777;-112,47174;415;77;1,37;0,37;0,19;1,30
$33,71773;-112,47173;415;76;1,2;0,38;0,7;0,95
$33,71770;-112,47173;416;76;1,11;0,34;0,4;1,5
$33,71766;-112,47170;416;75;0,92;0,34;0,21;0,83
$33,71763;-112,47169;416;74;0,47;0,30;0,9;0,35
$33,71759;-112,47167;416;74;0,91;0,26;0,23;0,84
$33,71756;-112,47166;415;73;1,15;0,36;0,24;1,7
$33,71753;-112,47165;415;73;1,9;0,37;0,8;1,2
$33,71749;-112,47163;415;72;1,20;0,30;0,3;1,16
$33,71746;-112,47161;415;72;1,1;0,37;0,11;0,93
$33,71743;-112,47160;415;71;0,99;0,26;0,1;0,95
$33,71740;-112,47158;414;70;0,96;0,31;0,4;0,90
$33,71736;-112,47157;414;70;1,8;0,33;0,0;1,2
$33,71733;-112,47155;414;70;1,22;0,37;0,10;1,15
$33,71730;-112,47153;414;69;0,90;0,26;0,12;0,85
$33,71726;-112,47152;415;69;0,90;0,34;0,12;0,82
$33,71723;-112,47150;415;67;1,1;0,30;0,20;0,95
$33,71720;-112,47149;415;66;0,88;0,36;0,0;0,80
$33,71717;-112,47148;415;67;1,3;0,29;0,16;0,97
$33,71714;-112,47147;415;65;0,93;0,27;0,14;0,88
$33,71711;-112,47144;415;64;0,81;0,31;0,4;0,75
$33,71708;-112,47144;415;63;1,0;0,32;0,3;0,94
$33,71706;-112,47142;415;62;1,12;0,19;0,8;1,10
$33,71703;-112,47140;415;61;1,0;0,26;0,7;0,96
$33,71700;-112,47139;415;61;1,14;0,29;0,12;1,9
$33,71697;-112,47137;415;61;0,91;0,23;0,14;0,87
$33,71694;-112,47136;415;61;0,76;0,17;0,11;0,73
$33,71691;-112,47135;415;60;0,70;0,20;0,10;0,66
$33,71688;-112,47134;415;59;0,77;0,23;0,5;0,73
$33,71686;-112,47133;415;59;0,99;0,29;0,6;0,94
$33,71683;-112,47131;415;59;2,40;-1,78;0,26;1,59
$33,71680;-112,47131;415;57;0,59;0,28;0,31;0,41
$33,71677;-112,47129;416;56;0,54;0,9;0,35;0,40
$33,71674;-112,47128;416;56;1,20;-1,10;0,14;0,47
$33,71672;-112,47128;416;53;0,77;0,56;0,22;0,48
$33,71670;-112,47127;416;51;1,61;0,90;0,97;0,91
$33,71667;-112,47125;416;50;1,30;0,6;0,12;1,29
$33,71665;-112,47124;416;50;1,70;0,21;-1,44;0,88
$33,71663;-112,47123;416;49;0,90;0,46;0,58;0,49
$33,71661;-112,47121;417;47;0,78;0,23;0,60;0,43
$33,71659;-112,47120;417;45;2,86;-1,86;0,92;1,96
$33,71657;-112,47118;417;44;2,0;0,62;0,70;1,76
$33,71655;-112,47117;417;43;0,89;0,45;0,32;0,69
$33,71654;-112,47116;418;42;0,93;0,88;0,17;0,24
$33,71651;-112,47115;418;42;1,38;0,43;0,63;1,14
$33,71649;-112,47114;418;40;2,3;1,3;0,62;1,63
$33,71648;-112,47112;418;39;1,85;0,69;1,50;0,83
$33,71646;-112,47111;418;38;3,7;0,50;2,91;0,85
$33,71645;-112,47111;418;38;1,19;0,57;0,17;1,3
$33,71643;-112,47109;419;37;2,42;1,48;0,32;1,88
$33,71641;-112,47108;419;36;1,3;0,28;0,79;0,60
$33,71640;-112,47108;419;35;0,95;0,62;0,71;0,9
$33,71638;-112,47107;419;34;1,83;1,6;1,48;0,19
$33,71636;-112,47106;419;32;1,64;0,18;1,27;1,3
$33,71635;-112,47106;420;30;0,57;0,5;0,6;0,56
$33,71633;-112,47105;420;27;2,67;2,16;0,54;1,48
$33,71632;-112,47105;420;26;2,54;0,46;-2,47;0,35
$33,71631;-112,47105;420;25;0,96;0,57;0,34;0,69
$33,71630;-112,47105;421;23;1,43;0,16;0,5;1,42
$33,71629;-112,47105;421;22;1,39;0,40;0,2;1,34
$33,71628;-112,47104;421;20;2,61;1,8;-1,14;2,8
$33,71627;-112,47103;422;18;1,29;0,16;-1,3;0,75
$33,71627;-112,47102;422;15;1,3;0,27;0,49;0,86
$33,71626;-112,47102;422;14;1,32;0,70;0,24;1,9
$33,71626;-112,47101;422;14;1,59;0,65;-1,16;0,88
$33,71626;-112,47101;422;12;1,55;0,32;1,24;0,87
$33,71625;-112,47101;422;11;1,53;0,35;0,95;1,15
$33,71625;-112,47101;423;9;1,29;0,93;0,69;0,57
$33,71624;-112,47099;423;7;1,70;0,38;0,61;1,54
$33,71624;-112,47099;423;5;1,14;0,44;0,2;1,5
$33,71624;-112,47101;423;4;0,58;0,10;0,43;0,36
$33,71623;-112,47101;423;4;1,2;0,19;0,41;0,91
$33,71623;-112,47101;423;3;1,13;0,14;0,24;1,9
$33,71623;-112,47101;423;2;1,6;0,29;0,5;1,2
$33,71623;-112,47101;423;1;1,7;0,4;0,4;1,6
$33,71623;-112,47101;424;1;0,98;0,8;0,6;0,97
$33,71623;-112,47101;424;1;0,91;0,13;0,15;0,89
$33,71623;-112,47101;424;0;0,91;0,8;0,17;0,89
$33,71623;-112,47101;424;0;0,92;0,4;0,14;0,90
$33,71623;-112,47101;424;0;0,92;0,3;0,11;0,91
$33,71623;-112,47101;425;0;0,91;0,1;0,14;0,90
$33,71623;-112,47101;425;0;0,93;0,3;0,13;0,92
$33,71623;-112,47101;425;0;0,92;0,2;0,14;0,91
$33,71623;-112,47101;425;0;0,90;0,3;0,14;0,89
$33,71623;-112,47101;425;0;0,93;0,3;0,13;0,92
$33,71623;-112,47101;425;0;0,91;0,4;0,12;0,90
$33,71624;-112,47101;426;0;0,92;0,4;0,14;0,91
$33,71624;-112,47101;426;0;0,91;0,3;0,13;0,90
$33,71624;-112,47101;426;0;0,93;0,4;0,14;0,92
$33,71624;-112,47101;426;0;0,92;0,3;0,13;0,91
$33,71624;-112,47101;426;0;0,93;0,2;0,13;0,91
$33,71624;-112,47101;426;0;0,90;0,3;0,14;0,89
$33,71624;-112,47101;426;0;0,92;0,3;0,13;0,91
$33,71624;-112,47101;426;0;0,92;0,3;0,13;0,91
$33,71624;-112,47101;426;0;0,93;0,2;0,14;0,92
$33,71624;-112,47101;426;0;0,92;0,2;0,15;0,91
$33,71624;-112,47101;427;0;0,93;0,2;0,13;0,92
$33,71624;-112,47101;427;0;0,90;0,2;0,14;0,89
$33,71624;-112,47101;427;0;0,93;0,3;0,15;0,91
$33,71624;-112,47101;427;0;0,92;0,3;0,12;0,91
$33,71624;-112,47101;427;0;0,92;0,3;0,14;0,91
$33,71624;-112,47101;427;0;0,91;0,3;0,13;0,90
$33,71624;-112,47101;427;0;0,93;0,2;0,13;0,91
$33,71624;-112,47101;427;0;0,93;0,3;0,14;0,92
$33,71624;-112,47101;427;0;0,91;0,4;0,12;0,90
$33,71624;-112,47101;427;0;0,91;0,2;0,12;0,90
$33,71624;-112,47101;427;0;0,93;0,3;0,15;0,92
$33,71624;-112,47101;427;0;0,90;0,3;0,12;0,89
$33,71624;-112,47101;427;0;0,93;0,3;0,14;0,92
$33,71624;-112,47101;427;0;0,91;0,3;0,13;0,90
$33,71624;-112,47101;427;0;0,90;0,1;0,14;0,89
$33,71624;-112,47101;428;1;0,90;0,3;0,13;0,89
$33,71625;-112,47101;428;0;0,91;0,1;0,14;0,90
$33,71625;-112,47101;428;0;0,92;0,4;0,13;0,91
$33,71625;-112,47101;428;0;0,91;0,3;0,13;0,90
$33,71625;-112,47101;428;0;0,92;0,4;0,12;0,92
$33,71625;-112,47101;428;0;0,91;0,1;0,13;0,90
$33,71625;-112,47101;428;0;0,93;0,3;0,13;0,92
$33,71625;-112,47101;428;0;0,92;0,3;0,13;0,91
$33,71625;-112,47101;428;0;0,91;0,1;0,13;0,90
